# Spektrum der Halogenlampe bei 4,8 A
# Spalte1: Wellenlänge [nm]
# Spalte2: Intensität
185.22	4.
186.06	4.
186.89	4.
187.73	5.
188.56	3.
189.40	3.
190.24	4.
191.07	3.
191.91	3.
192.74	3.
193.58	3.
194.41	3.
195.25	3.
196.08	3.
196.92	3.
197.75	3.
198.59	3.
199.43	4.
200.26	4.
201.10	4.
201.93	3.
202.77	3.
203.60	4.
204.44	4.
205.27	3.
206.11	3.
206.95	2.
207.78	2.
208.62	3.
209.45	3.
210.29	2.
211.12	2.
211.96	2.
212.79	2.
213.63	2.
214.47	3.
215.30	3.
216.14	2.
216.97	2.
217.81	2.
218.64	2.
219.48	3.
220.32	3.
221.15	3.
221.99	3.
222.82	3.
223.66	3.
224.49	3.
225.33	3.
226.17	3.
227.00	3.
227.84	4.
228.67	3.
229.51	3.
230.34	3.
231.18	3.
232.02	4.
232.85	3.
233.69	3.
234.52	3.
235.36	2.
236.19	2.
237.03	3.
237.87	3.
238.70	2.
239.54	1.
240.37	2.
241.21	2.
242.04	2.
242.88	3.
243.72	2.
244.55	3.
245.39	2.
246.22	3.
247.06	3.
247.89	3.
248.73	3.
249.57	3.
250.40	3.
251.24	4.
252.07	3.
252.91	4.
253.74	3.
254.58	3.
255.42	3.
256.25	3.
257.09	4.
257.92	4.
258.76	4.
259.60	4.
260.43	5.
261.27	5.
262.10	5.
262.94	5.
263.77	5.
264.61	5.
265.45	5.
266.28	5.
267.12	5.
267.95	6.
268.79	6.
269.62	7.
270.46	7.
271.30	7.
272.13	7.
272.97	7.
273.80	8.
274.64	8.
275.47	8.
276.31	8.
277.15	8.
277.98	8.
278.82	9.
279.65	9.
280.49	9.
281.32	9.
282.16	9.
282.99	10.
283.83	10.
284.67	10.
285.50	10.
286.34	11.
287.17	11.
288.01	12.
288.84	12.
289.68	13.
290.52	14.
291.35	15.
292.19	15.
293.02	16.
293.86	17.
294.69	18.
295.53	20.
296.36	21.
297.20	22.
298.04	23.
298.87	25.
299.71	27.
300.54	29.
301.38	31.
302.21	32.
303.05	34.
303.88	36.
304.72	38.
305.55	40.
306.39	41.
307.23	42.
308.06	43.
308.90	46.
309.73	47.
310.57	48.
311.40	49.
312.24	51.
313.07	52.
313.91	53.
314.74	54.
315.58	55.
316.41	55.
317.25	55.
318.08	56.
318.92	55.
319.76	55.
320.59	55.
321.43	55.
322.26	55.
323.10	55.
323.93	55.
324.77	55.
325.60	55.
326.44	56.
327.27	57.
328.11	58.
328.94	58.
329.78	60.
330.61	61.
331.45	63.
332.28	66.
333.12	67.
333.95	69.
334.79	70.
335.62	73.
336.46	75.
337.29	78.
338.13	80.
338.96	83.
339.80	86.
340.63	90.
341.47	93.
342.30	99.
343.14	102.
343.97	106.
344.81	113.
345.64	118.
346.48	124.
347.31	129.
348.15	136.
348.98	143.
349.82	150.
350.65	157.
351.49	166.
352.32	172.
353.15	181.
353.99	188.
354.82	198.
355.66	208.
356.49	220.
357.33	234.
358.16	248.
359.00	261.
359.83	272.
360.67	283.
361.50	293.
362.34	303.
363.17	313.
364.00	323.
364.84	333.
365.67	343.
366.51	350.
367.34	357.
368.18	364.
369.01	371.
369.84	379.
370.68	385.
371.51	392.
372.35	397.
373.18	401.
374.02	407.
374.85	412.
375.68	418.
376.52	423.
377.35	428.
378.19	435.
379.02	438.
379.86	446.
380.69	452.
381.52	458.
382.36	463.
383.19	468.
384.03	476.
384.86	483.
385.69	490.
386.53	496.
387.36	504.
388.19	511.
389.03	520.
389.86	529.
390.70	537.
391.53	545.
392.36	552.
393.20	560.
394.03	569.
394.86	581.
395.70	591.
396.53	602.
397.37	612.
398.20	626.
399.03	636.
399.87	651.
400.70	664.
401.53	679.
402.37	692.
403.20	709.
404.03	727.
404.87	745.
405.70	760.
406.53	778.
407.37	796.
408.20	815.
409.03	836.
409.87	858.
410.70	883.
411.53	904.
412.37	928.
413.20	953.
414.03	982.
414.87	1007.
415.70	1035.
416.53	1063.
417.36	1094.
418.20	1124.
419.03	1155.
419.86	1186.
420.70	1219.
421.53	1252.
422.36	1286.
423.19	1319.
424.03	1353.
424.86	1387.
425.69	1421.
426.53	1455.
427.36	1488.
428.19	1522.
429.02	1555.
429.86	1590.
430.69	1621.
431.52	1653.
432.35	1682.
433.19	1711.
434.02	1738.
434.85	1765.
435.68	1793.
436.51	1818.
437.35	1845.
438.18	1868.
439.01	1892.
439.84	1912.
440.68	1932.
441.51	1952.
442.34	1968.
443.17	1985.
444.00	1999.
444.84	2013.
445.67	2024.
446.50	2037.
447.33	2045.
448.16	2055.
449.00	2061.
449.83	2069.
450.66	2075.
451.49	2085.
452.32	2090.
453.15	2097.
453.99	2099.
454.82	2102.
455.65	2102.
456.48	2103.
457.31	2104.
458.14	2103.
458.97	2101.
459.81	2099.
460.64	2099.
461.47	2100.
462.30	2100.
463.13	2099.
463.96	2098.
464.79	2098.
465.62	2098.
466.46	2100.
467.29	2103.
468.12	2106.
468.95	2107.
469.78	2109.
470.61	2112.
471.44	2116.
472.27	2121.
473.10	2129.
473.93	2136.
474.77	2141.
475.60	2146.
476.43	2150.
477.26	2159.
478.09	2167.
478.92	2176.
479.75	2184.
480.58	2194.
481.41	2205.
482.24	2216.
483.07	2227.
483.90	2240.
484.73	2254.
485.56	2266.
486.39	2278.
487.22	2290.
488.05	2305.
488.88	2319.
489.71	2334.
490.54	2348.
491.37	2362.
492.20	2376.
493.03	2392.
493.86	2410.
494.69	2429.
495.52	2445.
496.35	2462.
497.18	2478.
498.01	2499.
498.84	2515.
499.67	2532.
500.50	2548.
501.33	2569.
502.16	2590.
502.99	2613.
503.82	2632.
504.65	2652.
505.48	2670.
506.30	2688.
507.13	2706.
507.96	2725.
508.79	2746.
509.62	2766.
510.45	2786.
511.28	2804.
512.11	2821.
512.94	2837.
513.77	2853.
514.59	2871.
515.42	2890.
516.25	2907.
517.08	2925.
517.91	2943.
518.74	2962.
519.57	2984.
520.40	3005.
521.22	3028.
522.05	3047.
522.88	3066.
523.71	3085.
524.54	3104.
525.37	3127.
526.19	3150.
527.02	3177.
527.85	3203.
528.68	3228.
529.51	3255.
530.33	3282.
531.16	3310.
531.99	3336.
532.82	3364.
533.65	3391.
534.47	3418.
535.30	3445.
536.13	3475.
536.96	3504.
537.78	3535.
538.61	3563.
539.44	3593.
540.27	3623.
541.09	3654.
541.92	3683.
542.75	3710.
543.57	3738.
544.40	3765.
545.23	3789.
546.06	3812.
546.88	3837.
547.71	3865.
548.54	3895.
549.36	3921.
550.19	3948.
551.02	3975.
551.84	3997.
552.67	4022.
553.50	4042.
554.32	4068.
555.15	4094.
555.98	4118.
556.80	4142.
557.63	4158.
558.46	4174.
559.28	4183.
560.11	4189.
560.93	4180.
561.76	4150.
562.59	4108.
563.41	4070.
564.24	4054.
565.06	4081.
565.89	4148.
566.72	4246.
567.54	4353.
568.37	4448.
569.19	4518.
570.02	4549.
570.84	4551.
571.67	4536.
572.50	4515.
573.32	4492.
574.15	4464.
574.97	4439.
575.80	4411.
576.62	4389.
577.45	4363.
578.27	4339.
579.10	4310.
579.92	4282.
580.75	4253.
581.57	4225.
582.40	4194.
583.22	4163.
584.05	4132.
584.87	4101.
585.70	4067.
586.52	4035.
587.34	4004.
588.17	3976.
588.99	3948.
589.82	3922.
590.64	3899.
591.47	3877.
592.29	3859.
593.11	3844.
593.94	3830.
594.76	3818.
595.59	3808.
596.41	3800.
597.23	3794.
598.06	3788.
598.88	3781.
599.70	3775.
600.53	3772.
601.35	3770.
602.17	3768.
603.00	3765.
603.82	3765.
604.64	3764.
605.47	3764.
606.29	3758.
607.11	3755.
607.94	3748.
608.76	3742.
609.58	3734.
610.41	3723.
611.23	3718.
612.05	3710.
612.87	3703.
613.70	3691.
614.52	3680.
615.34	3669.
616.16	3659.
616.99	3650.
617.81	3639.
618.63	3630.
619.45	3621.
620.28	3610.
621.10	3597.
621.92	3583.
622.74	3572.
623.56	3559.
624.38	3547.
625.21	3536.
626.03	3527.
626.85	3517.
627.67	3506.
628.49	3496.
629.31	3485.
630.14	3475.
630.96	3465.
631.78	3458.
632.60	3450.
633.42	3444.
634.24	3437.
635.06	3431.
635.88	3425.
636.70	3417.
637.53	3411.
638.35	3401.
639.17	3393.
639.99	3383.
640.81	3374.
641.63	3362.
642.45	3354.
643.27	3344.
644.09	3336.
644.91	3325.
645.73	3315.
646.55	3304.
647.37	3292.
648.19	3277.
649.01	3263.
649.83	3254.
650.65	3246.
651.47	3236.
652.29	3223.
653.11	3209.
653.93	3199.
654.75	3190.
655.57	3182.
656.39	3174.
657.21	3165.
658.02	3157.
658.84	3153.
659.66	3147.
660.48	3142.
661.30	3135.
662.12	3131.
662.94	3131.
663.76	3130.
664.58	3133.
665.39	3135.
666.21	3137.
667.03	3136.
667.85	3138.
668.67	3143.
669.49	3145.
670.30	3148.
671.12	3150.
671.94	3156.
672.76	3166.
673.58	3176.
674.39	3183.
675.21	3188.
676.03	3194.
676.85	3203.
677.66	3215.
678.48	3223.
679.30	3234.
680.12	3240.
680.93	3247.
681.75	3253.
682.57	3261.
683.38	3267.
684.20	3271.
685.02	3272.
685.83	3274.
686.65	3278.
687.47	3284.
688.28	3291.
689.10	3294.
689.92	3297.
690.73	3298.
691.55	3305.
692.37	3308.
693.18	3313.
694.00	3316.
694.81	3322.
695.63	3329.
696.45	3334.
697.26	3337.
698.08	3340.
698.89	3343.
699.71	3346.
700.52	3348.
701.34	3351.
702.16	3356.
702.97	3359.
703.79	3363.
704.60	3366.
705.42	3371.
706.23	3379.
707.05	3384.
707.86	3391.
708.68	3396.
709.49	3402.
710.30	3405.
711.12	3408.
711.93	3410.
712.75	3418.
713.56	3425.
714.38	3428.
715.19	3430.
716.00	3431.
716.82	3438.
717.63	3444.
718.45	3449.
719.26	3449.
720.07	3452.
720.89	3450.
721.70	3445.
722.51	3436.
723.33	3431.
724.14	3427.
724.95	3423.
725.77	3418.
726.58	3411.
727.39	3400.
728.21	3386.
729.02	3377.
729.83	3369.
730.64	3362.
731.46	3353.
732.27	3345.
733.08	3339.
733.89	3330.
734.71	3320.
735.52	3307.
736.33	3298.
737.14	3286.
737.95	3276.
738.77	3262.
739.58	3251.
740.39	3237.
741.20	3223.
742.01	3207.
742.82	3195.
743.63	3181.
744.45	3166.
745.26	3149.
746.07	3137.
746.88	3124.
747.69	3112.
748.50	3094.
749.31	3081.
750.12	3068.
750.93	3056.
751.74	3039.
752.55	3022.
753.36	3005.
754.17	2989.
754.98	2972.
755.80	2956.
756.61	2940.
757.42	2923.
758.22	2908.
759.03	2893.
759.84	2882.
760.65	2868.
761.46	2854.
762.27	2836.
763.08	2821.
763.89	2804.
764.70	2790.
765.51	2772.
766.32	2758.
767.13	2742.
767.94	2730.
768.75	2720.
769.55	2710.
770.36	2701.
771.17	2688.
771.98	2676.
772.79	2667.
773.60	2657.
774.40	2647.
775.21	2634.
776.02	2625.
776.83	2613.
777.64	2602.
778.44	2592.
779.25	2584.
780.06	2578.
780.87	2569.
781.67	2563.
782.48	2554.
783.29	2544.
784.09	2533.
784.90	2526.
785.71	2516.
786.52	2507.
787.32	2496.
788.13	2486.
788.94	2476.
789.74	2466.
790.55	2455.
791.35	2445.
792.16	2432.
792.97	2423.
793.77	2412.
794.58	2404.
795.38	2392.
796.19	2381.
797.00	2368.
797.80	2356.
798.61	2342.
799.41	2327.
800.22	2313.
801.02	2299.
801.83	2284.
802.63	2272.
803.44	2262.
804.24	2254.
805.05	2240.
805.85	2226.
806.66	2210.
807.46	2196.
808.27	2181.
809.07	2167.
809.87	2156.
810.68	2142.
811.48	2129.
812.29	2115.
813.09	2102.
813.89	2089.
814.70	2074.
815.50	2059.
816.30	2041.
817.11	2027.
817.91	2012.
818.71	2000.
819.52	1986.
820.32	1973.
821.12	1959.
821.93	1949.
822.73	1939.
823.53	1928.
824.33	1911.
825.14	1894.
825.94	1880.
826.74	1865.
827.54	1850.
828.34	1835.
829.15	1820.
829.95	1802.
830.75	1783.
831.55	1763.
832.35	1743.
833.15	1722.
833.96	1699.
834.76	1681.
835.56	1667.
836.36	1657.
837.16	1647.
837.96	1641.
838.76	1634.
839.56	1628.
840.36	1619.
841.16	1613.
841.96	1607.
842.76	1600.
843.56	1592.
844.36	1581.
845.16	1570.
845.96	1560.
846.76	1552.
847.56	1545.
848.36	1535.
849.16	1523.
849.96	1510.
850.76	1496.
851.56	1485.
852.36	1471.
853.16	1459.
853.96	1444.
854.76	1432.
855.55	1421.
856.35	1411.
857.15	1401.
857.95	1389.
858.75	1379.
859.55	1368.
860.34	1356.
861.14	1345.
861.94	1335.
862.74	1325.
863.53	1313.
864.33	1300.
865.13	1289.
865.93	1280.
866.72	1270.
867.52	1261.
868.32	1249.
869.12	1240.
869.91	1229.
870.71	1217.
871.51	1205.
872.30	1193.
873.10	1186.
873.90	1177.
874.69	1168.
875.49	1157.
876.28	1147.
877.08	1138.
877.88	1128.
878.67	1120.
879.47	1110.
880.26	1101.
881.06	1091.
881.85	1079.
882.65	1070.
883.44	1059.
884.24	1050.
885.03	1042.
885.83	1032.
886.62	1024.
887.42	1016.
888.21	1010.
889.00	1001.
889.80	992.
890.59	981.
891.39	973.
892.18	963.
892.97	954.
893.77	945.
894.56	936.
895.36	930.
896.15	921.
896.94	916.
897.74	908.
898.53	901.
899.32	892.
900.11	883.
900.91	875.
901.70	866.
902.49	860.
903.28	850.
904.08	842.
904.87	833.
905.66	826.
906.45	817.
907.24	810.
908.04	803.
908.83	797.
909.62	789.
910.41	782.
911.20	774.
911.99	767.
912.78	761.
913.57	756.
914.37	749.
915.16	740.
915.95	732.
916.74	723.
917.53	715.
918.32	707.
919.11	700.
919.90	695.
920.69	687.
921.48	680.
922.27	670.
923.06	662.
923.85	658.
924.64	653.
925.43	647.
926.21	639.
927.00	631.
927.79	624.
928.58	616.
929.37	609.
930.16	604.
930.95	599.
931.74	592.
932.52	586.
933.31	578.
934.10	571.
934.89	563.
935.68	558.
936.46	551.
937.25	543.
938.04	535.
938.83	527.
939.61	521.
940.40	515.
941.19	508.
941.97	501.
942.76	495.
943.55	489.
944.33	484.
945.12	479.
945.91	474.
946.69	469.
947.48	463.
948.26	458.
949.05	452.
949.84	446.
950.62	440.
951.41	436.
952.19	430.
952.98	424.
953.76	418.
954.55	412.
955.33	408.
956.12	404.
956.90	399.
957.69	394.
958.47	387.
959.26	383.
960.04	380.
960.82	377.
961.61	370.
962.39	364.
963.18	359.
963.96	356.
964.74	351.
965.53	346.
966.31	341.
967.09	336.
967.88	331.
968.66	328.
969.44	326.
970.22	323.
971.01	318.
971.79	312.
972.57	307.
973.35	303.
974.13	299.
974.92	297.
975.70	294.
976.48	291.
977.26	286.
978.04	282.
978.82	277.
979.61	275.
980.39	271.
981.17	267.
981.95	263.
982.73	260.
983.51	257.
984.29	252.
985.07	248.
985.85	244.
986.63	241.
987.41	237.
988.19	235.
988.97	231.
989.75	228.
990.53	225.
991.31	220.
992.09	217.
992.87	214.
993.65	212.
994.42	207.
995.20	205.
995.98	202.
996.76	199.
997.54	196.
998.32	193.
999.09	192.
999.87	190.
1000.65	187.
1001.43	184.
1002.21	180.
1002.98	177.
1003.76	172.
1004.54	169.
1005.31	167.
1006.09	165.
1006.87	162.
1007.64	159.
1008.42	154.
1009.20	152.
1009.97	150.
1010.75	149.
1011.53	146.
1012.30	143.
1013.08	142.
1013.85	139.
1014.63	138.
1015.40	136.
1016.18	133.
1016.95	132.
1017.73	129.
1018.50	128.
1019.28	127.
1020.05	124.
1020.83	121.
